Folder: Synthesis-of-barbituric-acid-doped-carbon-nitride-for-efficient-solar-driven-photocatalytic-degradat/Synthesis of barbituric acid doped carbon nitride for efficient solar-driven photocatalytic degradation of aniline/data/CN-BA-XPS/XPS (part 2)

File: 1#-N1s.txt
413.02	6910.71
412.92	6960.27
412.82	6768.97
412.72	6945.6
412.62	6839.85
412.52	6903.84
412.42	6974.12
412.32	7037.76
412.22	7129.45
412.12	6660.56
412.02	6598.35
411.92	6987.48
411.82	6555.24
411.72	6621.1
411.62	6754.44
411.52	6580.28
411.42	6750.38
411.32	6540.73
411.22	6251.75
411.12	6603.46
411.02	6429.46
410.92	6541.49
410.82	6086.3
410.72	6338.41
410.62	6606.96
410.52	6346.88
410.42	6356
410.32	6256.48
410.22	6126.07
410.12	6262.14
410.02	6243.25
409.92	6239.11
409.82	6351.05
409.72	6250.14
409.62	5971.01
409.52	6437.3
409.42	6088.36
409.32	6222.51
409.22	6113.01
409.12	6167.38
409.02	6210.73
408.92	6127.17
408.82	6182.22
408.72	5963.97
408.62	6192.08
408.52	6210.08
408.42	6313.1
408.32	6488.16
408.22	6169.34
408.12	6454.75
408.02	6997.27
407.92	6396.17
407.82	6691.91
407.72	6627.17
407.62	6775.11
407.52	6633.99
407.42	6871.01
407.32	6751.93
407.22	6924.13
407.12	6838.92
407.02	6891.93
406.92	6811.26
406.82	6979.33
406.72	7079.04
406.62	6554.2
406.52	7177.93
406.42	6930.84
406.32	6959.23
406.22	6825.55
406.12	7105.16
406.02	7107.24
405.92	7244.79
405.82	7250.77
405.72	7171.13
405.62	7262.82
405.52	7594.35
405.42	7692.38
405.32	7698.23
405.22	7600.28
405.12	7905.82
405.02	8002.24
404.92	8066.92
404.82	8413.93
404.72	8013.18
404.62	7701.77
404.52	8243.04
404.42	8157.76
404.32	8068.91
404.22	7699.41
404.12	7428.26
404.02	7569.26
403.92	7363.42
403.82	7047.36
403.72	6915.86
403.62	6656.03
403.52	6471.18
403.42	6417.35
403.32	6145.38
403.22	5903.14
403.12	6373.47
403.02	5861.35
402.92	6155.97
402.82	5867.37
402.72	6434.63
402.62	6686.85
402.52	6470.71
402.42	7297.59
402.32	7991.54
402.22	8903.18
402.12	9686.24
402.02	10085.9
401.92	11175.7
401.82	12552.5
401.72	13235.8
401.62	13668
401.52	14572.9
401.42	15070.8
401.32	15679.5
401.22	15880.5
401.12	16288.7
401.02	16839.1
400.92	16942.1
400.82	17310.2
400.72	18189.6
400.62	18911.3
400.52	19343.2
400.42	20195.2
400.32	21141.1
400.22	22985.5
400.12	23911.4
400.02	25302.2
399.92	28346.1
399.82	31566.1
399.72	34135
399.62	38459.3
399.52	42575.8
399.42	47310.8
399.32	52408
399.22	55358.8
399.12	59014
399.02	59900.7
398.92	59326.6
398.82	57728.4
398.72	53860.5
398.62	49938
398.52	43776.5
398.42	37865.9
398.32	30620.4
398.22	25059.3
398.12	20027.7
398.02	15921.7
397.92	12147.8
397.82	9708.72
397.72	7602.25
397.62	6250.4
397.52	5755.93
397.42	4869.14
397.32	4038.74
397.22	4024.22
397.12	3814.89
397.02	3659.5
396.92	3570.51
396.82	3224.49
396.72	3106.53
396.62	3242.5
396.52	3071.65
396.42	2919.42
396.32	3071.15
396.22	3111.17
396.12	2857.53
396.02	2909.6
395.92	2909.86
395.82	3043.66
395.72	2823.69
395.62	2815.77
395.52	2801.13
395.42	2646.48
395.32	2810.01
395.22	2870.38
395.12	2776.13
395.02	2738.04
394.92	2801.56
394.82	2646.01
394.72	2694
394.62	2822.17
394.52	2680.65
394.42	2895.6
394.32	2767.97
394.22	2840.24
394.12	2747.99
394.02	2852.71
393.92	2660.59
393.82	2591.03
393.72	2711.87
393.62	2968.04
393.52	2689.57
393.42	2722.72
393.32	2687.47
393.22	2709.2
393.12	2878.32
393.02	2688.14
392.92	2693.6
392.82	2776.72
392.72	2665.68
392.62	2703.6
392.52	2653.52
392.42	2724.34
392.32	2651.46
392.22	2745.06
392.12	2825.04
392.02	2848.75
391.92	2726.02
391.82	2748.13
391.72	2660.83
391.62	2722
391.52	2797.25
391.42	2686.86
391.32	2755.57
391.22	2591.25
391.12	2612.21
391.02	2734.86
390.92	2659.12
390.82	2627.21
390.72	2699.75
390.62	2852.53
390.52	2699.74
390.42	2682.17
390.32	2612.87
390.22	2679.65
390.12	2597.8
390.02	2749.98
389.92	2881.74
389.82	2936.15
389.72	2697.1
389.62	2926.91
389.52	2805.58
389.42	2853.1
389.32	2561.62
389.22	2680.55
389.12	2774.32
389.02	2738.88

File: 1#-O1s.dat
B.E.(eV)           Raw Intensity       Peak Sum            Background          Peak 1              difference
 546.02             8435.31             8439.826            8435.31             8439.826           -4.516602
 545.72             8456.15             8440.953            8436.232            8440.953            15.19727
 545.42             8411.63             8442.093            8437.154            8442.093           -30.46289
 545.12             8403.4              8443.25             8438.077            8443.25            -39.84961
 544.82             8478.88             8444.423            8438.999            8444.423            34.45703
 544.52             8466.5              8445.614            8439.922            8445.614            20.88574
 544.22             8334.76             8446.826            8440.844            8446.826           -112.0664
 543.92             8280.15             8448.063            8441.767            8448.063           -167.9121
 543.62             8392.43             8449.322            8442.689            8449.322           -56.89258
 543.32             8169.33             8450.61             8443.611            8450.61            -281.2803
 543.02             8423.89             8451.93             8444.534            8451.93            -28.04004
 542.72             8576.96             8453.282            8445.456            8453.282            123.6777
 542.42             8494.85             8454.675            8446.379            8454.675            40.1748
 542.12             8293.93             8456.111            8447.302            8456.111           -162.1816
 541.82             8347.47             8457.596            8448.224            8457.596           -110.126
 541.52             8406.91             8459.136            8449.146            8459.136           -52.22559
 541.22             8279.67             8460.738            8450.068            8460.738           -181.0684
 540.92             8482.66             8462.412            8450.991            8462.412            20.24805
 540.62             8541.71             8464.168            8451.913            8464.168            77.54199
 540.32             8388.64             8466.019            8452.836            8466.019           -77.37891
 540.02             8343.94             8467.979            8453.759            8467.979           -124.0381
 539.72             8634.28             8470.063            8454.681            8470.063            164.2168
 539.42             8631.39             8472.297            8455.604            8472.297            159.0928
 539.12             8583.8              8474.702            8456.525            8474.702            109.0977
 538.82             8335.99             8477.314            8457.448            8477.314           -141.3242
 538.52             8119.65             8480.171            8458.371            8480.171           -360.521
 538.22             8404.39             8483.319            8459.293            8483.319           -78.92969
 537.92             8224.07             8486.824            8460.216            8486.824           -262.7539
 537.62             8522.27             8490.762            8461.138            8490.762            31.50781
 537.32             8557.36             8495.234            8462.061            8495.234            62.12598
 537.02             8639.36             8500.375            8462.982            8500.375            138.9854
 536.72             8415.68             8506.375            8463.905            8506.375           -90.69531
 536.42             8467.23             8513.521            8464.828            8513.521           -46.29102
 536.12             8340.67             8522.356            8465.75             8522.356           -181.6865
 535.82             8212.6              8534.076            8466.673            8534.076           -321.4766
 535.52             8772.82             8551.527            8467.595            8551.527            221.293
 535.22             8431.78             8581.313            8468.518            8581.313           -149.5332
 534.92             8464.93             8637.245            8469.44             8637.245           -172.3154
 534.62             8875.32             8744.451            8470.362            8744.451            130.8691
 534.32             9106.09             8940.901            8471.285            8940.901            165.1885
 534.02             9444.44             9271.024            8472.207            9271.024            173.416
 533.72             9985.06             9767.104            8473.13             9767.104            217.9551
 533.42             10758.3             10420.33            8474.052            10420.33            337.9746
 533.12             10896.1             11155.47            8474.975            11155.47           -259.375
 532.82             11886.4             11822.74            8475.897            11822.74            63.66016
 532.52             12199.7             12223.32            8476.819            12223.32           -23.62305
 532.22             12406.7             12200.1             8477.742            12200.1             206.6006
 531.92             11946.1             11763.56            8478.664            11763.56            182.5439
 531.62             11237.3             11081.84            8479.587            11081.84            155.4639
 531.32             10386.2             10351.38            8480.51             10351.38            34.81934
 531.02             9430.72             9714.502            8481.432            9714.502           -283.7822
 530.72             9309.58             9238.512            8482.354            9238.512            71.06836
 530.42             8885.55             8926.447            8483.276            8926.447           -40.89746
 530.12             8681.69             8743.469            8484.199            8743.469           -61.77832
 529.82             8375.38             8645.171            8485.121            8645.171           -269.791
 529.52             8452.85             8594.841            8486.044            8594.841           -141.9912
 529.22             8167.48             8568.712            8486.967            8568.712           -401.2319
 528.92             8338.05             8553.939            8487.889            8553.939           -215.8896
 528.62             8365.79             8544.467            8488.812            8544.467           -178.6768
 528.32             8324.86             8537.696            8489.733            8537.696           -212.8359
 528.02             8437.45             8532.537            8490.656            8532.537           -95.08691
 527.72             8150.83             8528.485            8491.579            8528.485           -377.6553
 527.42             8386.05             8525.267            8492.501            8525.267           -139.2168
 527.12             8378.87             8522.702            8493.424            8522.702           -143.832
 526.82             8630.54             8520.66             8494.346            8520.66             109.8799
 526.52             8301.67             8519.042            8495.269            8519.042           -217.3721
 526.22             7948.15             8517.771            8496.19             8517.771           -569.6206
 525.92             8069.26             8516.788            8497.113            8516.788           -447.5283
 525.62             8437.51             8516.046            8498.036            8516.046           -78.53613
 525.32             8499.14             8515.504            8498.958            8515.504           -16.36426
 525.02             8586.52             8515.133            8499.881            8515.133            71.38672
 524.72             8315.11             8514.906            8500.803            8514.906           -199.7959
 524.42             8275.45             8514.805            8501.726            8514.805           -239.3545
 524.12             8289.79             8514.811            8502.648            8514.811           -225.0205
 523.82             8420.74             8514.907            8503.57             8514.907           -94.16699
 523.52             8380.78             8515.087            8504.493            8515.087           -134.3066
 523.22             8521.23             8515.335            8505.415            8515.335            5.895508
 523.02             8506.03             8515.537            8506.03             8515.537           -9.506836

File: 1#-O1s.txt
546.02	8435.31
545.92	8584.05
545.82	8387.57
545.72	8456.15
545.62	8387.21
545.52	8352.77
545.42	8411.63
545.32	8415.08
545.22	8732.83
545.12	8403.4
545.02	8461.66
544.92	8270.74
544.82	8478.88
544.72	8580.76
544.62	8461.12
544.52	8466.5
544.42	8468.16
544.32	8436.57
544.22	8334.76
544.12	8534.75
544.02	8257.86
543.92	8280.15
543.82	8709.77
543.72	8110.79
543.62	8392.43
543.52	8273.13
543.42	8389.54
543.32	8169.33
543.22	8742.37
543.12	8731.83
543.02	8423.89
542.92	8374.87
542.82	8197.68
542.72	8576.96
542.62	8371.09
542.52	8579.37
542.42	8494.85
542.32	8532.52
542.22	8488.44
542.12	8293.93
542.02	8186.61
541.92	8418.82
541.82	8347.47
541.72	8536.9
541.62	8431.2
541.52	8406.91
541.42	8292.9
541.32	8426.04
541.22	8279.67
541.12	8596.46
541.02	8335.24
540.92	8482.66
540.82	8769.13
540.72	8419.84
540.62	8541.71
540.52	8445.62
540.42	8586.73
540.32	8388.64
540.22	8730.54
540.12	8539.81
540.02	8343.94
539.92	8766.96
539.82	8545.39
539.72	8634.28
539.62	8238.32
539.52	8322.22
539.42	8631.39
539.32	8367.4
539.22	8626.95
539.12	8583.8
539.02	8555.62
538.92	8653.23
538.82	8335.99
538.72	8559.7
538.62	8671.18
538.52	8119.65
538.42	8129.74
538.32	8551.6
538.22	8404.39
538.12	8368.47
538.02	8390.63
537.92	8224.07
537.82	8690.9
537.72	8026.47
537.62	8522.27
537.52	8449.38
537.42	8436.26
537.32	8557.36
537.22	8321.59
537.12	8337.16
537.02	8639.36
536.92	8472.26
536.82	8410.44
536.72	8415.68
536.62	8522.9
536.52	8419.8
536.42	8467.23
536.32	8504.35
536.22	8526.67
536.12	8340.67
536.02	8301.52
535.92	8375.13
535.82	8212.6
535.72	8577
535.62	8774.48
535.52	8772.82
535.42	8636.49
535.32	8317.49
535.22	8431.78
535.12	8623.53
535.02	8824.32
534.92	8464.93
534.82	8852.06
534.72	9017.89
534.62	8875.32
534.52	8572.15
534.42	8955.1
534.32	9106.09
534.22	9356.28
534.12	9195.33
534.02	9444.44
533.92	9516.35
533.82	9769.73
533.72	9985.06
533.62	9803.61
533.52	10478.2
533.42	10758.3
533.32	10471.9
533.22	10658.5
533.12	10896.1
533.02	11152.1
532.92	11330.3
532.82	11886.4
532.72	11724.5
532.62	11988.6
532.52	12199.7
532.42	12354.5
532.32	12061.3
532.22	12406.7
532.12	12518.2
532.02	12105.3
531.92	11946.1
531.82	11520.6
531.72	11297.8
531.62	11237.3
531.52	10356.6
531.42	10431.5
531.32	10386.2
531.22	10130.3
531.12	9912.16
531.02	9430.72
530.92	9497.34
530.82	9398.34
530.72	9309.58
530.62	9079.49
530.52	9152.24
530.42	8885.55
530.32	8825.8
530.22	8823.96
530.12	8681.69
530.02	8302.75
529.92	8623.68
529.82	8375.38
529.72	8502.91
529.62	8946.2
529.52	8452.85
529.42	8642.56
529.32	8220.11
529.22	8167.48
529.12	8459.45
529.02	8451.57
528.92	8338.05
528.82	8133.98
528.72	8419.03
528.62	8365.79
528.52	8389.8
528.42	8476.35
528.32	8324.86
528.22	8334.12
528.12	8213.24
528.02	8437.45
527.92	8225.31
527.82	8300.73
527.72	8150.83
527.62	8366.85
527.52	8270.92
527.42	8386.05
527.32	8423.9
527.22	8621.5
527.12	8378.87
527.02	8469.99
526.92	8332.22
526.82	8630.54
526.72	8362.9
526.62	8531.48
526.52	8301.67
526.42	8308.09
526.32	8306.23
526.22	7948.15
526.12	8162.36
526.02	8316.34
525.92	8069.26
525.82	8569.44
525.72	8464.92
525.62	8437.51
525.52	8538.86
525.42	8186.2
525.32	8499.14
525.22	8202.64
525.12	8258.62
525.02	8586.52
524.92	8652.33
524.82	8388.63
524.72	8315.11
524.62	8417.79
524.52	8490.08
524.42	8275.45
524.32	8438.7
524.22	8039.08
524.12	8289.79
524.02	8243.09
523.92	8281.45
523.82	8420.74
523.72	8573.88
523.62	8365.01
523.52	8380.78
523.42	8205.08
523.32	8479.33
523.22	8521.23
523.12	8390.93
523.02	8506.03