Folder: Synthesis-of-barbituric-acid-doped-carbon-nitride-for-efficient-solar-driven-photocatalytic-degradat/Synthesis of barbituric acid doped carbon nitride for efficient solar-driven photocatalytic degradation of aniline/data/CN-BA-XPS/XPS (part 5)

File: 6#-O1s.txt
546.02	8610.12
545.92	8678.14
545.82	8671.74
545.72	8524.71
545.62	8843.84
545.52	8644.61
545.42	8665.7
545.32	8826.66
545.22	8431.58
545.12	8565.31
545.02	9031.41
544.92	8630.62
544.82	8916.92
544.72	8476.33
544.62	8659.83
544.52	8772.51
544.42	8623.64
544.32	8718.63
544.22	8479.38
544.12	8847.19
544.02	8723.27
543.92	8700.96
543.82	8570.17
543.72	8324.54
543.62	8410.26
543.52	8520.29
543.42	8560.88
543.32	8414.93
543.22	8517.58
543.12	8487.09
543.02	8713.22
542.92	8355.82
542.82	8735.92
542.72	8476.08
542.62	8546.85
542.52	8602.47
542.42	8501.24
542.32	8527.34
542.22	8657.29
542.12	8503.72
542.02	8763.39
541.92	8625.88
541.82	8708.67
541.72	8607.64
541.62	8655.01
541.52	8882.52
541.42	8558.15
541.32	8778.03
541.22	8788.71
541.12	8469.19
541.02	8334.31
540.92	8789.68
540.82	8435.6
540.72	8445
540.62	8667.11
540.52	8428.42
540.42	8809.04
540.32	8500.96
540.22	8929.86
540.12	8736.22
540.02	8487.03
539.92	8540.93
539.82	8957.39
539.72	8631.27
539.62	8807.06
539.52	8688
539.42	8733.11
539.32	8743.07
539.22	8431.32
539.12	8531.69
539.02	8738.4
538.92	8519.04
538.82	8681.08
538.72	8771.42
538.62	8839.53
538.52	8226.62
538.42	8716.92
538.32	8569.06
538.22	8716.49
538.12	9005.94
538.02	8768.97
537.92	8475.67
537.82	8335.84
537.72	8575.44
537.62	8426.93
537.52	8581.1
537.42	8657.92
537.32	8458.87
537.22	8741.72
537.12	8260.32
537.02	8300.81
536.92	8609.92
536.82	8912.18
536.72	8502.7
536.62	8810.59
536.52	8610.17
536.42	8395.93
536.32	8500.18
536.22	8557.17
536.12	8534.44
536.02	8766.08
535.92	8618.68
535.82	8842.85
535.72	8772.36
535.62	8656.62
535.52	8661.29
535.42	8807.44
535.32	8619.26
535.22	8456.09
535.12	8837.65
535.02	8804.38
534.92	8875.32
534.82	8914.96
534.72	8931.21
534.62	8762.31
534.52	9358.55
534.42	8980.13
534.32	8962.53
534.22	9258.63
534.12	9385.25
534.02	9441.65
533.92	9725
533.82	9927.02
533.72	10100
533.62	9892.52
533.52	10353.6
533.42	10408
533.32	10742.1
533.22	10745.3
533.12	10641.3
533.02	11552.2
532.92	11251.5
532.82	11454.6
532.72	11890.3
532.62	12044.7
532.52	12034.3
532.42	11919.6
532.32	11908.1
532.22	12126.9
532.12	12309.2
532.02	12199
531.92	12023.4
531.82	12073.7
531.72	11764.3
531.62	11976.4
531.52	11259.2
531.42	10654.6
531.32	10600.4
531.22	10435.8
531.12	10106.5
531.02	10279.5
530.92	10272.7
530.82	9539.05
530.72	9271.58
530.62	9499.56
530.52	9443.6
530.42	9303.46
530.32	9069.74
530.22	8897.58
530.12	8766.5
530.02	8969.58
529.92	8798.88
529.82	8710.97
529.72	8826.31
529.62	8529.13
529.52	8714.7
529.42	8633.79
529.32	8599.23
529.22	9005.99
529.12	8914.82
529.02	8767.95
528.92	8498.77
528.82	8542.11
528.72	8375.12
528.62	8565.77
528.52	8845.59
528.42	8573.53
528.32	8412.89
528.22	8514.27
528.12	8893.63
528.02	8477.58
527.92	8472.71
527.82	8610.32
527.72	8800.66
527.62	8730.27
527.52	8553.49
527.42	8538.3
527.32	8540.12
527.22	8539.77
527.12	8604.4
527.02	8455.01
526.92	8314.38
526.82	8327.4
526.72	8470.8
526.62	8589.19
526.52	8873.53
526.42	8662.24
526.32	8531.95
526.22	8598.59
526.12	8705.64
526.02	8669.37
525.92	8761.19
525.82	8504.12
525.72	8794.87
525.62	8498.89
525.52	8373.76
525.42	8268.62
525.32	8485.68
525.22	8565.88
525.12	8669.27
525.02	8559.98
524.92	8788.02
524.82	8769.98
524.72	8629.61
524.62	8419.73
524.52	8349.6
524.42	8443.29
524.32	8311.04
524.22	8603.8
524.12	8733.4
524.02	8427.61
523.92	8556.62
523.82	8655.07
523.72	8642.45
523.62	8788.47
523.52	8591.19
523.42	8403.93
523.32	8769.16
523.22	8365.74
523.12	8652.61
523.02	8580.95

File: 6#-Survey.txt
1349.97	59310.9
1344.97	57828.7
1339.97	57438.1
1334.97	57090.5
1329.97	57319.4
1324.97	56185.4
1319.97	55801
1314.97	56573.4
1309.97	56132
1304.97	56074.4
1299.97	56218.4
1294.97	56511.8
1289.97	56329
1284.97	57743.1
1279.97	57512.6
1274.97	58674.1
1269.97	57801.5
1264.97	58210.1
1259.97	58863.9
1254.97	60202.7
1249.97	60245.2
1244.97	60416.4
1239.97	62111.9
1234.97	63676.4
1229.97	64429.3
1224.97	65001.5
1219.97	64999.9
1214.97	59084.9
1209.97	55200.7
1204.97	52398.2
1199.97	52121
1194.97	52251.5
1189.97	51871.7
1184.97	53021.5
1179.97	52109.7
1174.97	53341.1
1169.97	53324.2
1164.97	53708.3
1159.97	54028.3
1154.97	55339.9
1149.97	55427.2
1144.97	56662.8
1139.97	57478.7
1134.97	57341.5
1129.97	57488.1
1124.97	60819
1119.97	59663.5
1114.97	57431.3
1109.97	57373.6
1104.97	65952.4
1099.97	55061.4
1094.97	39167.4
1089.97	31510.4
1084.97	31076.7
1079.97	31159.2
1074.97	30622.3
1069.97	30906
1064.97	31576.4
1059.97	31758.1
1054.97	32157.5
1049.97	31726.6
1044.97	32872.9
1039.97	32312.5
1034.97	32862.4
1029.97	32761.6
1024.97	33022.8
1019.97	33236.4
1014.97	34179.5
1009.97	33837.9
1004.97	34399
999.97	35102.4
994.97	35156.6
989.97	35143.7
984.97	34222.4
979.97	35958.2
974.97	37456.5
969.97	35926.3
964.97	34166.6
959.97	33349.7
954.97	33825.2
949.97	33797.3
944.97	34142.1
939.97	33659
934.97	34460.2
929.97	34486.7
924.97	34295.3
919.97	35572.6
914.97	35168.3
909.97	34581.6
904.97	35215.1
899.97	35642.8
894.97	35516.5
889.97	35370.6
884.97	36280.2
879.97	36164.2
874.97	36677.4
869.97	36963.4
864.97	36617.2
859.97	36968.4
854.97	37061.1
849.97	37246
844.97	37594.2
839.97	37943.9
834.97	38391.4
829.97	37947.4
824.97	38648.9
819.97	38406.5
814.97	38591.5
809.97	38233.9
804.97	39051.6
799.97	39842.4
794.97	39647.9
789.97	39688.8
784.97	39625.4
779.97	39980.5
774.97	39856.8
769.97	39170.9
764.97	39910.3
759.97	40448.4
754.97	40700.4
749.97	40813.4
744.97	40964.8
739.97	40948.7
734.97	41146.8
729.97	42397.3
724.97	41539.7
719.97	42590
714.97	42379.5
709.97	42251.7
704.97	42612.6
699.97	43388.7
694.97	43522.1
689.97	43521
684.97	43202.6
679.97	43932.2
674.97	43996.7
669.97	44297.6
664.97	44335.7
659.97	44637.5
654.97	44309.7
649.97	44905.3
644.97	44579.6
639.97	45346.3
634.97	45104
629.97	46137.3
624.97	45411.7
619.97	46173.3
614.97	46091.9
609.97	46948.2
604.97	47251.6
599.97	47226.2
594.97	47595
589.97	47774.3
584.97	47778.6
579.97	48012.3
574.97	48622.6
569.97	48686.7
564.97	49647.3
559.97	49253
554.97	50031
549.97	49514.6
544.97	49096.1
539.97	50075.4
534.97	50066.2
529.97	60384.2
524.97	49501.5
519.97	49263
514.97	50275.1
509.97	51309.7
504.97	50458.8
499.97	50716.7
494.97	51304.9
489.97	52297.8
484.97	51322.9
479.97	51617.3
474.97	52304.4
469.97	53035.9
464.97	53063
459.97	53685.3
454.97	53791.4
449.97	52296.7
444.97	52782.8
439.97	53898.8
434.97	54935.6
429.97	55013.6
424.97	56052.6
419.97	51380.8
414.97	44185.8
409.97	39624.1
404.97	43706.1
399.97	98633.1
394.97	23786.1
389.97	16805.4
384.97	16405.4
379.97	16751
374.97	16627.4
369.97	17152.4
364.97	16408.5
359.97	16789.3
354.97	17367.8
349.97	17755.7
344.97	17943.1
339.97	17072.9
334.97	17843.4
329.97	18617.7
324.97	17822.2
319.97	19264.7
314.97	19476.6
309.97	18691.4
304.97	14792.7
299.97	13460.5
294.97	12608.7
289.97	10831.8
284.97	26306.8
279.97	2293.52
274.97	1981.55
269.97	2136.97
264.97	2087.47
259.97	1903.97
254.97	2249.98
249.97	2096.97
244.97	2164.32
239.97	1994.27
234.97	2077.02
229.97	2271.43
224.97	2008.18
219.97	2074.31
214.97	2053.06
209.97	2265.8
204.97	2311.38
199.97	2207.1
194.97	2290.61
189.97	2106.72
184.97	2174.09
179.97	2257.81
174.97	2181.3
169.97	2341.65
164.97	2290.02
159.97	2149.23
154.97	2091.21
149.97	2305.25
144.97	2293.22
139.97	2401.38
134.97	2418.45
129.97	2258.53
124.97	2245.19
119.97	2511.96
114.97	2203.31
109.97	2302.22
104.97	2158.49
99.97	2384.3
94.97	2375.48
89.97	2344.91
84.97	2403.97
79.97	2558.76
74.97	2574.1
69.97	2450.64
64.97	2622.04
59.97	2532.15
54.97	2851.8
49.97	2753.91
44.97	2589.18
39.97	2355.54
34.97	2251.84
29.97	2442.88
24.97	4337.48
19.97	4690.87
14.97	2472.12
9.97	1336.27
4.97	2348.36
-0.03	58.3408
-5.03	8.52585
-10.03	4.84548

File: 6#-Valence.dat
B.E.(eV)           Raw Intensity       Peak Sum            Background          Peak 1              Peak 2              Peak 3              Peak 4              Peak 5              Peak 6              difference
 41.02              387.011             390.8696            387.011             387.03              387.0521            387.0466            387.0723            387.0933            390.6302           -3.858612
 40.07              407.411             390.8591            386.5828            386.6028            386.6263            386.6207            386.6486            386.6718            390.6031            16.55191
 39.12              395.118             391.9507            387.1853            387.2064            387.2313            387.2257            387.256             387.2817            391.6761            3.167358
 38.17              376.635             393.2325            387.8896            387.912             387.9384            387.9328            387.9659            387.9944            392.9373           -16.59753
 37.22              408.776             394.8735            388.8417            388.8653            388.8935            388.888             388.9241            388.9561            394.5551            13.90247
 36.27              373.089             396.3783            389.5143            389.5393            389.5694            389.564             389.6036            389.6396            396.0338           -23.28931
 35.32              406.735             398.5262            390.6368            390.6634            390.6956            390.6904            390.734             390.7747            398.1523            8.20874
 34.37              366.895             400.8138            391.6107            391.6389            391.6735            391.6685            391.7168            391.7632            400.4062           -33.91882
 33.42              350.808             403.7455            392.7242            392.7543            392.7914            392.7868            392.8406            392.8937            403.2995           -52.9375
 32.47              396.17              408.2287            394.3521            394.3843            394.4243            394.4203            394.4803            394.5417            407.7383           -12.05869
 31.52              382.233             413.7657            394.7371            394.7715            394.8148            394.8115            394.8791            394.9505            413.2238           -31.53268
 30.57              420.368             424.1838            395.0436            395.0806            395.1276            395.1251            395.2016            395.2856            423.5815           -3.815826
 29.62              467.511             442.1623            393.1587            393.1985            393.2496            393.2484            393.3356            393.4354            441.4884            25.34869
 28.67              447.195             474.8281            389.224             389.2669            389.3228            389.3231            389.4234            389.5435            474.0684           -27.63306
 27.72              532.357             527.9802            381.5654            381.6118            381.673             381.6755            381.7918            381.9384            527.1165            4.37677
 26.77              656.487             603.9299            368.645             368.6954            368.7628            368.7682            368.9044            369.0861            602.938             52.55707
 25.82              770.86              698.1964            351.1934            351.2483            351.3229            351.3319            351.4936            351.723             697.0436            72.66357
 24.87              812.001             791.5889            328.1808            328.2408            328.3239            328.3378            328.532             328.8284            790.2299            20.41205
 23.92              811.329             856.8518            302.8557            302.9217            303.0146            303.0352            303.2722            303.6654            855.2213           -45.52283
 22.97              827.075             860.704             275.4234            275.4962            275.6007            275.6306            275.9251            276.4641            858.7043           -33.62897
 22.02              817.371             788.9564            245.6849            245.7656            245.8842            245.9266            246.3008            247.0704            786.4334            28.41461
 21.07              722.521             664.2109            217.1852            217.2752            217.4108            217.4708            217.9588            219.1173            660.9043            58.31006
 20.12              559.524             522.931             191.8955            191.9965            192.1529            192.238             192.8953            194.7674            518.3585            36.59296
 19.17              431.845             400.8594            176.0626            176.1768            176.3591            176.4808            177.4031            180.9017            393.851             30.98563
 18.22              328.743             318.6722            167.107             167.237             167.4521            167.6288            168.9936            182.168             300.7276            10.07083
 17.27              334.754             327.1226            159.0278            159.1772            159.4346            159.6967            161.8913            245.6997            236.3618            7.631439
 16.32              429.128             441.789             146.771             146.9446            147.2577            147.6581            152.5471            390.3465            190.8898           -12.66101
 15.37              396.879             381.5436            131.1259            131.33              131.7184            132.3562            155.524             328.7528            157.4916            15.33536
 14.42              302.105             291.7789            120.2337            120.4771            120.9705            122.0675            220.2955            171.5052            137.6314            10.32608
 13.47              336.715             324.841             109.4338            109.729             110.3747            113.0113            297.8976            118.7523            122.245             11.87396
 12.52              273.79              256.1808            99.36296            99.72852            100.6055            112.8341            226.8763            103.3574            109.5938            17.60916
 11.57              202.705             194.4113            92.16464            92.62883            93.87976            144.8567            128.471             94.67559            100.7227            8.293686
 10.62              205.926             215.8362            85.5837             86.19237            88.09875            195.9247            93.30836            87.31197            92.91859           -9.910248
 9.67               215.262             191.9072            78.95122            79.78355            82.97643            176.1602            82.20604            80.21082            85.32622            23.35483
 8.72               127.419             129.1473            73.84926            75.05431            81.49262            111.6732            75.9224             74.80698            79.44408           -1.72831
 7.77               143.209             128.0505            71.04331            72.9369             110.1338            79.91372            72.49489            71.79557            75.99223            15.15846
 6.82               378.567             353.3832            62.37607            65.75926            341.1075            65.18358            63.44717            62.98232            66.78372            25.18375
 5.87               405.482             410.1841            41.76837            52.20631            392.8535            43.39063            42.59026            42.26723            45.71803           -4.702087
 4.92               249.24              211.6891            27.08867            140.6758            92.35789            28.20615            27.73878            27.50627            30.64751            37.55092
 3.97               317.247             282.0764            13.14795            267.6685            22.63454            13.96492            13.67481            13.5026             16.37074            35.17065
 3.02               118.299             61.76389            2.999237            52.9348             7.533743            3.621614            3.434724            3.304147            5.931044            56.53512
 2.07               22.421              12.84923            .4270172            6.286922            3.190779            .9164797            .7929299            .6919469            3.105259            9.571768
 1.12               0                   8.1286              .1944509            2.879571            2.048652            .5892431            .5061826            .4267673            2.650439           -8.1286
 .17                .94438              6.12883             .1538181            1.741719            1.481664            .478862             .4225442            .3591857            2.413945           -5.18445
-.78                0                   4.945592            .1279919            1.173016            1.124826            .4002011            .3620186            .3108367            2.214653           -4.945592
-1.73               0                   4.136332            8.925582E-02        .8278374            .8647227            .3205023            .2948838            .2530862            2.021579           -4.136332
-2.68               5.65026             3.551005            .0585494            .6077422            .6788165            .2574063            .2406435            .2061817            1.852961            2.099255
-3.63               0                   3.082085            1.102271E-02        .435176             .518337             .1838327            .1733983            .1447438            1.681711           -3.082085
-3.98               0                   2.939795            0                   .3886491            .4733592            .1644882            .1559106            .1290876            1.6283             -2.939795

File: 6#-Valence.txt
41.02	387.011
40.82	394.506
40.62	416.158
40.42	406.835
40.22	376.595
40.02	372.465
39.82	360.792
39.62	403.954
39.42	384.53
39.22	344.314
39.02	386.823
38.82	362.577
38.62	397.735
38.42	343.902
38.22	365.85
38.02	386.283
37.82	361.933
37.62	358.547
37.42	383.609
37.22	408.776
37.02	363.229
36.82	372.845
36.62	406.218
36.42	406.579
36.22	379.352
36.02	335.75
35.82	384.09
35.62	352.757
35.42	410.3
35.22	379.572
35.02	358.055
34.82	355.298
34.62	375.366
34.42	354.594
34.22	347.131
34.02	359.016
33.82	364.15
33.62	364.618
33.42	350.808
33.22	338.683
33.02	370.272
32.82	333.169
32.62	382.897
32.42	379.4
32.22	361.945
32.02	389.644
31.82	394.642
31.62	413.661
31.42	366.511
31.22	393.005
31.02	380.476
30.82	397.435
30.62	417.343
30.42	439.416
30.22	442.313
30.02	391.585
29.82	433.385
29.62	467.511
29.42	392.745
29.22	461.309
29.02	488.527
28.82	480.88
28.62	504.958
28.42	517.991
28.22	545.83
28.02	572.093
27.82	511.757
27.62	624.258
27.42	640.792
27.22	613.485
27.02	609.736
26.82	689.804
26.62	672.605
26.42	696.046
26.22	666.663
26.02	742.901
25.82	770.86
25.62	766.022
25.42	750.676
25.22	801.248
25.02	759.884
24.82	818.375
24.62	785.81
24.42	781.417
24.22	829.012
24.02	804.594
23.82	808.407
23.62	810.124
23.42	776.323
23.22	855.602
23.02	828.956
22.82	840.732
22.62	778.083
22.42	829.32
22.22	821.353
22.02	817.371
21.82	757.035
21.62	759.692
21.42	748.475
21.22	756.975
21.02	691.581
20.82	720.108
20.62	664.458
20.42	691.685
20.22	599.932
20.02	570.156
19.82	529.856
19.62	509.252
19.42	398.944
19.22	415.386
19.02	331.725
18.82	348.375
18.62	312.273
18.42	314.462
18.22	328.743
18.02	305.922
17.82	309.764
17.62	323.725
17.42	345.13
17.22	342.521
17.02	400.436
16.82	365.462
16.62	388.94
16.42	445.926
16.22	439.128
16.02	468.735
15.82	441.553
15.62	422.449
15.42	378.395
15.22	366.299
15.02	320.26
14.82	327.011
14.62	300.704
14.42	302.105
14.22	303.99
14.02	348.439
13.82	337.751
13.62	352.913
13.42	331.068
13.22	329.656
13.02	292.233
12.82	252.405
12.62	239.88
12.42	285.558
12.22	220.26
12.02	238.267
11.82	239.112
11.62	188.78
11.42	209.5
11.22	196.887
11.02	221.12
10.82	205.674
10.62	205.926
10.42	227.631
10.22	192.525
10.02	176.635
9.82	191.525
9.62	185.054
9.42	196.186
9.22	188.96
9.02	147.419
8.82	155.726
8.62	151.369
8.42	134.446
8.22	124.298
8.02	92.397
7.82	146.739
7.62	143.754
7.42	180.48
7.22	250.356
7.02	298.88
6.82	378.567
6.62	456.739
6.42	480.416
6.22	443.866
6.02	454.262
5.82	410.624
5.62	328.707
5.42	299.008
5.22	242.833
5.02	227.263
4.82	258.824
4.62	319.872
4.42	287.395
4.22	272.981
4.02	301.561
3.82	243.701
3.62	217.803
3.42	168.183
3.22	146.082
3.02	118.299
2.82	91.5406
2.62	35.018
2.42	23.1413
2.22	15.3501
2.02	11.7367
1.82	4.77391
1.62	2.80912
1.42	2.52901
1.22	1.19248
1.02	0
0.82	1.94478
0.62	3.13725
0.42	0
0.22	0
0.02	0
-0.18	0
-0.38	0
-0.58	0.53221
-0.78	0
-0.98	0
-1.18	1.61665
-1.38	2.16887
-1.58	0
-1.78	0.37215
-1.98	1.60864
-2.18	0.37215
-2.38	0
-2.58	0
-2.78	0
-2.98	0
-3.18	0
-3.38	1.62865
-3.58	1.33653
-3.78	0.94438
-3.98	0