Folder: Synthesis-of-barbituric-acid-doped-carbon-nitride-for-efficient-solar-driven-photocatalytic-degradat/Synthesis of barbituric acid doped carbon nitride for efficient solar-driven photocatalytic degradation of aniline/data/CN-BA-XPS/XPS (part 4)

File: 6#-C1s.txt
321.02	3066.53
320.82	3372.88
320.62	3089.32
320.42	3069.5
320.22	3060.19
320.02	3202.79
319.82	3068.39
319.62	3099.49
319.42	3169.66
319.22	3214.83
319.02	3172.11
318.82	3184.86
318.62	3296.42
318.42	3138.78
318.22	3327.91
318.02	3263.28
317.82	3304.07
317.62	3421.92
317.42	3252.81
317.22	3191.14
317.02	3088.38
316.82	3149.51
316.62	3217.17
316.42	3201.6
316.22	3214.39
316.02	3227.87
315.82	3327.93
315.62	3277.37
315.42	3133.96
315.22	3539.98
315.02	3170.11
314.82	3213.59
314.62	3253.57
314.42	3293.2
314.22	3247.2
314.02	3364.29
313.82	3251.05
313.62	3236
313.42	3144.89
313.22	3220.57
313.02	3226.67
312.82	3162.52
312.62	3249.71
312.42	3340.34
312.22	3193
312.02	3077.25
311.82	3305.01
311.62	3021.23
311.42	3084.43
311.22	3087.49
311.02	2905.37
310.82	2854.11
310.62	2918.65
310.42	2929.91
310.22	3068.61
310.02	2955.99
309.82	2935.95
309.62	2836.88
309.42	2864.98
309.22	2824.38
309.02	2719.89
308.82	2811.94
308.62	2766.97
308.42	2786.82
308.22	2665.74
308.02	2609.3
307.82	2661.73
307.62	2483.54
307.42	2588.62
307.22	2530.82
307.02	2403.19
306.82	2372.07
306.62	2425.77
306.42	2689.6
306.22	2439.47
306.02	2357.09
305.82	2409.08
305.62	2408.04
305.42	2343.56
305.22	2374.68
305.02	2158.32
304.82	2179.93
304.62	2175.42
304.42	2340.7
304.22	2185.37
304.02	2195.87
303.82	2243.26
303.62	2141.87
303.42	2031.36
303.22	2097.55
303.02	2121.78
302.82	2017.19
302.62	2114.78
302.42	2045.84
302.22	2205.9
302.02	2119.35
301.82	2078.32
301.62	2307.76
301.42	2152.38
301.22	2239.02
301.02	2361.52
300.82	2361.69
300.62	2146.4
300.42	2339.72
300.22	2383.9
300.02	2333.77
299.82	2506.37
299.62	2323.36
299.42	2467.43
299.22	2351.52
299.02	2349.14
298.82	2171.51
298.62	2254.19
298.42	2014.51
298.22	1996.82
298.02	2046.14
297.82	1989.2
297.62	1887.05
297.42	2109.99
297.22	1875.54
297.02	1918.23
296.82	1957.6
296.62	2056.47
296.42	1888.44
296.22	2016.19
296.02	2136.58
295.82	2013.56
295.62	2138.04
295.42	2068.11
295.22	2322.78
295.02	2299.79
294.82	2333.68
294.62	2541.81
294.42	2513.43
294.22	2734.72
294.02	2569.75
293.82	2794.58
293.62	2518.56
293.42	2499.9
293.22	2607.7
293.02	2328.4
292.82	2415.24
292.62	1973
292.42	1822.97
292.22	1653.9
292.02	1608.16
291.82	1407.1
291.62	1358.46
291.42	1360.78
291.22	1327.23
291.02	1266.52
290.82	1336.93
290.62	1276.75
290.42	1433.91
290.22	1486.26
290.02	1832.85
289.82	2569.71
289.62	3628.28
289.42	6210.77
289.22	9781.94
289.02	15617.9
288.82	22336.9
288.62	29511.6
288.42	33724.5
288.22	33267.8
288.02	28710.7
287.82	21319.2
287.62	13973.7
287.42	8738.79
287.22	5342.68
287.02	3923.31
286.82	3387.29
286.62	2800.76
286.42	2468.38
286.22	2532.57
286.02	2497.3
285.82	3081.48
285.62	3793.09
285.42	4549.05
285.22	5205.71
285.02	5643.31
284.82	5551.96
284.62	5130.48
284.42	3777.01
284.22	2710.96
284.02	1876.11
283.82	1101.08
283.62	867.967
283.42	629.962
283.22	528.541
283.02	464.226
282.82	432.503
282.62	377.851
282.42	411.114
282.22	441.757
282.02	320.618
281.82	399.49
281.62	339.206
281.42	309.174
281.22	348.269
281.02	291.447
280.82	431.303
280.62	361.134
280.42	306.112
280.22	362.305
280.02	376.12
279.82	373.95
279.62	422.149
279.42	259.004
279.22	336.104
279.02	372.789
278.82	357.323
278.62	286.645
278.42	380.932
278.22	417.487
278.02	281.423
277.82	310.654
277.62	384.874
277.42	364.036
277.22	346.859
277.02	322.399
276.82	347.349
276.62	341.397
276.42	365.806
276.22	370.308
276.02	401.701

File: 6#-N1s.dat
B.E.(eV)           Raw Intensity       Peak Sum            Background          Peak 1              Peak 2              Peak 3              Peak 4              difference
 413.02             7258.27             7286.565            7258.27             7277.755            7264.183            7260.974            7258.464           -28.29541
 412.57             7331.22             7291.814            7261.564            7282.338            7267.905            7264.484            7261.781            39.40625
 412.12             7153.38             7296.12             7263.707            7285.9              7270.522            7266.869            7263.95            -142.7402
 411.67             7002.34             7301.649            7266.829            7290.593            7274.174            7270.266            7267.103           -299.3091
 411.22             6951.57             7311.519            7274.011            7299.519            7281.951            7277.759            7274.322           -359.9492
 410.77             6566.08             7324.06             7283.537            7310.988            7292.146            7287.642            7283.895           -757.98
 410.32             6471.27             7343.299            7299.378            7329.002            7308.746            7303.892            7299.793           -872.0288
 409.87             6380.79             7362.807            7315.036            7347.101            7325.266            7320.024            7315.523           -982.0166
 409.42             6308.28             7384.143            7331.983            7366.805            7343.201            7337.524            7332.563           -1075.863
 408.97             6211.5              7408.922            7351.727            7389.675            7364.082            7357.917            7352.429           -1197.422
 408.52             6252.22             7435.528            7372.511            7414.026            7386.184            7379.472            7373.378           -1183.308
 408.07             6543.25             7462.847            7393.041            7438.65             7408.256            7400.925            7394.139           -919.5972
 407.62             6678.52             7482.995            7405.186            7455.525            7422.217            7414.19             7406.619           -804.4751
 407.17             6912.46             7505.272            7417.904            7473.748            7437.098            7428.285            7419.854           -592.8125
 406.72             6965.1              7526.277            7427.282            7489.583            7449.076            7439.379            7430.084           -561.1768
 406.27             7241.8              7548.377            7434.842            7504.788            7459.801            7449.118            7439.197           -306.5771
 405.82             7364.47             7573.696            7441.016            7520.098            7469.879            7458.114            7448.652           -209.2256
 405.37             7329.07             7606.599            7441.096            7531.226            7474.853            7461.94             7461.868           -277.5288
 404.92             8172.57             7823.494            7434.37             7538.025            7474.371            7460.33             7653.876            349.0762
 404.47             8124.97             8258.1              7421.213            7541.673            7469.354            7454.416            8056.295           -133.1294
 404.02             7730.95             7810.285            7405.382            7547.072            7464.403            7449.302            7565.655           -79.33447
 403.57             7139.41             7722.035            7401.691            7570.724            7475.697            7462.393            7418.294           -582.625
 403.12             6256.51             7810.245            7413.602            7618.674            7509.029            7502.758            7420.588           -1553.735
 402.67             6157.39             7974.045            7437.676            7691.564            7565.178            7588.585            7441.745           -1816.655
 402.22             7266.54             8433.986            7455.396            7777.65             7634.598            7929.879            7458.049           -1167.446
 401.77             11141.5             10511.6             7425.367            7847.381            7713.976            9799.111            7427.229            629.9043
 401.32             15112.4             15095.89            7314.162            7889.582            8056.955            13776.3             7315.54             16.5127
 400.87             17130.8             17110.53            7143.702            7977.227            9985.347            13434.3             7144.762            20.27148
 400.42             19209.2             18805.46            6929.161            8393.547            15124.72            9144.676            6930.002            403.7422
 399.97             24342               24682.52            6648.17             11289.61            19600.47            7088.092            6648.853           -340.5176
 399.52             36049.7             34880.86            6221.219            24958.74            15996.84            6367.158            6221.784            1168.836
 399.07             57069               56234.88            5459.318            52281.56            9324.793            5546.676            5459.794            834.125
 398.62             59230.9             60392.73            4370.939            59306.33            5397.24             4430.631            4371.346           -1161.828
 398.17             33501.8             32414.29            3486.34             32026.97            3830.015            3529.632            3486.691            1087.512
 397.72             11488.4             11378.06            3116.332            11147.37            3313.925            3149.121            3116.638            110.3447
 397.27             4876.76             5271.208            3024.212            5107.337            3162.14             3049.885            3024.481           -394.4478
 396.82             3675.84             4114.382            3001.484            3991.351            3103.64             3022.121            3001.723           -438.5417
 396.37             3281.06             3745.063            2993.861            3649.312            3072.455            3010.805            2994.074           -464.0024
 395.92             2931.64             3539.943            2991.576            3463.311            3053.858            3005.734            2991.767           -608.3027
 395.47             2852.51             3410.504            2992.544            3347.786            3043.084            3004.549            2992.717           -557.9939
 395.02             3071.96             3322.561            2993.438            3270.281            3035.254            3003.746            2993.595           -250.6011
 394.57             2782.23             3260.526            2994.612            3216.276            3029.773            3003.557            2994.754           -478.2957
 394.12             2981.49             3215.992            2996.651            3178.054            3026.623            3004.487            2996.781           -234.5024
 393.67             3033.1              3182.596            2998.554            3149.706            3024.403            3005.474            2998.674           -149.4958
 393.22             2921.7              3159.14             3002.495            3130.353            3025.015            3008.652            3002.606           -237.4397
 392.77             2550.93             3141.343            3006.39             3115.935            3026.183            3011.902            3006.492           -590.4126
 392.32             2703.56             3128.641            3011.155            3106.05             3028.688            3016.119            3011.25            -425.0811
 391.87             2850.13             3118.927            3015.718            3098.709            3031.355            3020.211            3015.806           -268.7976
 391.42             3056.27             3111.716            3020.324            3093.515            3034.357            3024.411            3020.406           -55.44629
 390.97             2785.08             3105.525            3024.027            3089.052            3036.69             3027.76             3024.104           -320.4448
 390.52             2785.95             3100.294            3027.163            3085.315            3038.647            3030.586            3027.235           -314.344
 390.07             2742.06             3097.791            3031.798            3084.111            3042.26             3034.948            3031.866           -355.7305
 389.62             2918.39             3097.317            3037.465            3084.774            3047.036            3040.374            3037.529           -178.9275
 389.17             2787.62             3096.803            3042.271            3085.26             3051.059            3044.964            3042.331           -309.1826
 389.02             3043.99             3096.906            3043.99             3085.671            3052.539            3046.617            3044.049           -52.91577

File: 6#-N1s.txt
413.02	7258.27
412.92	7078.64
412.82	7197.9
412.72	6807.35
412.62	7417.4
412.52	7085
412.42	6950.96
412.32	7101.65
412.22	7187.25
412.12	7153.38
412.02	6969.11
411.92	7080.88
411.82	7155.74
411.72	7136.43
411.62	7000.17
411.52	6921.9
411.42	7021.29
411.32	6798.13
411.22	6951.57
411.12	6608.88
411.02	6715.11
410.92	6768.36
410.82	6637.56
410.72	6515.49
410.62	6457.42
410.52	6670.95
410.42	6214.42
410.32	6471.27
410.22	6647.12
410.12	6673.12
410.02	6491.66
409.92	6409.55
409.82	6354.7
409.72	6446.92
409.62	6510.3
409.52	6488.52
409.42	6308.28
409.32	6396.21
409.22	6304.98
409.12	6293.66
409.02	6206.71
408.92	6303.9
408.82	6158.13
408.72	6375.9
408.62	6459.31
408.52	6252.22
408.42	6311.46
408.32	6194.93
408.22	6468.32
408.12	6524
408.02	6867.4
407.92	6778.03
407.82	6919.17
407.72	6846.64
407.62	6678.52
407.52	6692.47
407.42	6758.01
407.32	6777.47
407.22	6977.51
407.12	7011.79
407.02	7038.92
406.92	6844.17
406.82	6912.83
406.72	6965.1
406.62	7002.83
406.52	6990.02
406.42	7151.31
406.32	6939.63
406.22	7300.61
406.12	7053.41
406.02	7148.31
405.92	7093.81
405.82	7364.47
405.72	7380.18
405.62	7477.51
405.52	7552.3
405.42	7521.81
405.32	7685.98
405.22	7870.13
405.12	7960.17
405.02	7885.07
404.92	8172.57
404.82	8082.71
404.72	8102.68
404.62	7833.47
404.52	8179.62
404.42	8302.8
404.32	8487.04
404.22	8082.76
404.12	8284.27
404.02	7730.95
403.92	7539.26
403.82	7697.85
403.72	7343.4
403.62	7384.26
403.52	7293.94
403.42	6880.7
403.32	6710.29
403.22	6344.09
403.12	6256.51
403.02	6357.14
402.92	6242.02
402.82	6021.49
402.72	6011.61
402.62	6093.04
402.52	6432.23
402.42	6439.11
402.32	6936.83
402.22	7266.54
402.12	8065.57
402.02	8993.92
401.92	9571.41
401.82	11158.7
401.72	11591.7
401.62	12451.6
401.52	14021.5
401.42	14587.2
401.32	15112.4
401.22	15699.2
401.12	15954.6
401.02	16277.3
400.92	16792.2
400.82	17231.2
400.72	17685.6
400.62	18607
400.52	18687.8
400.42	19209.2
400.32	20182.9
400.22	21219
400.12	21917.9
400.02	23637
399.92	24861.1
399.82	26601.3
399.72	29398.4
399.62	31660
399.52	36049.7
399.42	39388.3
399.32	44281.6
399.22	50698.2
399.12	54905.7
399.02	58302.6
398.92	61336.6
398.82	63264.7
398.72	61545.4
398.62	59230.9
398.52	55638.7
398.42	50369.8
398.32	43373.9
398.22	37045.4
398.12	30497.4
398.02	24661
397.92	18884.9
397.82	14361.2
397.72	11488.4
397.62	9237.51
397.52	7596.23
397.42	6128.53
397.32	4961.34
397.22	4712.88
397.12	4232.83
397.02	3922.28
396.92	3780.82
396.82	3675.84
396.72	3474.69
396.62	3406.44
396.52	3231.99
396.42	3195.36
396.32	3160.73
396.22	3225.26
396.12	2924.15
396.02	3071.63
395.92	2931.64
395.82	2974.95
395.72	2992.26
395.62	2921.04
395.52	2962.46
395.42	2864.76
395.32	3014.84
395.22	2967.74
395.12	3077.86
395.02	3071.96
394.92	2824.51
394.82	2847.12
394.72	2935.63
394.62	2782.26
394.52	2794.71
394.42	2867.57
394.32	2982.95
394.22	2903.74
394.12	2981.49
394.02	2872.85
393.92	2851.21
393.82	2901.34
393.72	3020.39
393.62	2772.68
393.52	2823.73
393.42	2762.92
393.32	2856.84
393.22	2921.7
393.12	2757.24
393.02	2928.56
392.92	2774.13
392.82	2653.81
392.72	2710.07
392.62	2898.18
392.52	2934.02
392.42	2891.12
392.32	2703.56
392.22	2735.03
392.12	2843.61
392.02	2781.29
391.92	2902.84
391.82	2851.15
391.72	2579.3
391.62	2801.1
391.52	2729.94
391.42	3056.27
391.32	2692.55
391.22	2815.27
391.12	2741.18
391.02	2922.05
390.92	2956.75
390.82	2783.35
390.72	2861.09
390.62	2837.22
390.52	2785.95
390.42	2818.57
390.32	2777.93
390.22	2835.75
390.12	2823.26
390.02	2772.8
389.92	2716.13
389.82	2766.76
389.72	2795.44
389.62	2918.39
389.52	2721.68
389.42	2816.44
389.32	2666.08
389.22	2841.51
389.12	2667.06
389.02	3043.99

File: 6#-O1s.dat
B.E.(eV)           Raw Intensity       Peak Sum            Background          Peak 1              difference
 546.02             8610.12             8615.083            8610.12             8615.083           -4.962891
 545.72             8524.71             8615.228            8610.043            8615.228           -90.51758
 545.42             8665.7              8615.447            8610.024            8615.447            50.25293
 545.12             8565.31             8615.595            8609.918            8615.595           -50.28516
 544.82             8916.92             8615.797            8609.847            8615.797            301.123
 544.52             8772.51             8616.016            8609.772            8616.016            156.4941
 544.22             8479.38             8616.171            8609.613            8616.171           -136.791
 543.92             8700.96             8616.427            8609.53             8616.427            84.5332
 543.62             8410.26             8616.928            8609.665            8616.928           -206.668
 543.32             8414.93             8617.321            8609.662            8617.321           -202.3916
 543.02             8713.22             8617.853            8609.765            8617.853            95.36719
 542.72             8476.08             8618.423            8609.868            8618.423           -142.3428
 542.42             8501.24             8618.986            8609.925            8618.986           -117.7461
 542.12             8503.72             8619.486            8609.871            8619.486           -115.7666
 541.82             8708.67             8620.131            8609.909            8620.131            88.53906
 541.52             8882.52             8620.713            8609.827            8620.713            261.8066
 541.22             8788.71             8621.347            8609.729            8621.347            167.3633
 540.92             8789.68             8622.27             8609.845            8622.27             167.4102
 540.62             8667.11             8623.195            8609.877            8623.195            43.91504
 540.32             8500.96             8624.086            8609.775            8624.086           -123.126
 540.02             8487.03             8625.033            8609.615            8625.033           -138.0029
 539.72             8631.27             8626.243            8609.585            8626.243            5.026367
 539.42             8733.11             8627.516            8609.463            8627.516            105.5947
 539.12             8531.69             8629.071            8609.443            8629.071           -97.38086
 538.82             8681.08             8630.88             8609.464            8630.88             50.2002
 538.52             8226.62             8632.742            8609.284            8632.742           -406.1221
 538.22             8716.49             8635.064            8609.262            8635.064            81.42578
 537.92             8475.67             8637.604            8609.094            8637.604           -161.9346
 537.62             8426.93             8640.822            8609.159            8640.822           -213.8926
 537.32             8458.87             8644.522            8609.161            8644.522           -185.6523
 537.02             8300.81             8649.063            8609.319            8649.063           -348.2539
 536.72             8502.7              8654.288            8609.267            8654.288           -151.5879
 536.42             8395.93             8660.848            8609.293            8660.848           -264.918
 536.12             8534.44             8669.39             8609.313            8669.39            -134.9492
 535.82             8842.85             8681.48             8609.27             8681.48             161.3691
 535.52             8661.29             8700.754            8609.209            8700.754           -39.46387
 535.22             8456.09             8734.724            8609.214            8734.724           -278.6338
 534.92             8875.32             8797.023            8609.107            8797.023            78.29688
 534.62             8762.31             8910.109            8608.895            8910.109           -147.7998
 534.32             8962.53             9104.535            8608.521            9104.535           -142.0049
 534.02             9441.65             9412.741            8607.896            9412.741            28.90918
 533.72             10100               9855.343            8606.759            9855.343            244.6572
 533.42             10408               10422.82            8605.271            10422.82           -14.81641
 533.12             10641.3             11059.39            8603.29             11059.39           -418.0869
 532.82             11454.6             11658.09            8600.805            11658.09           -203.4912
 532.52             12034.3             12073.9             8597.799            12073.9            -39.60254
 532.22             12126.9             12172.84            8594.558            12172.84           -45.93652
 531.92             12023.4             11916.84            8591.131            11916.84            106.5566
 531.62             11976.4             11396.47            8587.957            11396.47            579.9307
 531.32             10600.4             10760.26            8585.414            10760.26           -159.8584
 531.02             10279.5             10140.22            8583.771            10140.22            139.2842
 530.72             9271.58             9620.644            8582.479            9620.644           -349.0635
 530.42             9303.46             9235.957            8581.598            9235.957            67.50293
 530.12             8766.5              8980.053            8581.161            8980.053           -213.5527
 529.82             8710.97             8824.74             8580.995            8824.74            -113.7705
 529.52             8714.7              8736.875            8580.893            8736.875           -22.1748
 529.22             9005.99             8689                8580.809            8689                316.9902
 528.92             8498.77             8662.442            8580.571            8662.442           -163.6729
 528.62             8565.77             8646.992            8580.683            8646.992           -81.22266
 528.32             8412.89             8636.676            8580.634            8636.676           -223.7861
 528.02             8477.58             8629.175            8580.657            8629.175           -151.5947
 527.72             8800.66             8623.338            8580.746            8623.338            177.3223
 527.42             8538.3              8618.416            8580.679            8618.416           -80.11621
 527.12             8604.4              8614.335            8580.661            8614.335           -9.93457
 526.82             8327.4              8611.007            8580.778            8611.007           -283.6064
 526.52             8873.53             8608.084            8580.804            8608.084            265.4463
 526.22             8598.59             8605.489            8580.75             8605.489           -6.899414
 525.92             8761.19             8603.238            8580.704            8603.238            157.9521
 525.62             8498.89             8601.257            8580.648            8601.257           -102.3672
 525.32             8485.68             8599.676            8580.759            8599.676           -113.9961
 525.02             8559.98             8598.181            8580.757            8598.181           -38.2002
 524.72             8629.61             8596.78             8580.681            8596.78             32.83008
 524.42             8443.29             8595.71             8580.79             8595.71            -152.4199
 524.12             8733.4              8594.735            8580.87             8594.735            138.665
 523.82             8655.07             8593.85             8580.933            8593.85             61.2207
 523.52             8591.19             8592.936            8580.873            8592.936           -1.745117
 523.22             8365.74             8592.165            8580.875            8592.165           -226.4248
 523.02             8580.95             8591.766            8580.95             8591.766           -10.81543