Folder: Synthesis-of-barbituric-acid-doped-carbon-nitride-for-efficient-solar-driven-photocatalytic-degradat/Synthesis of barbituric acid doped carbon nitride for efficient solar-driven photocatalytic degradation of aniline/data/CN-BA-XPS/XPS

File: 1#-C1s.dat
B.E.(eV)           Raw Intensity       Peak Sum            Background          Peak 1              Peak 2              Peak 3              difference
 321.02             3058.13             3061.865            3058.13             3058.13             3061.568            3058.427           -3.735107
 320.32             3109.75             3061.531            3057.627            3057.627            3061.218            3057.94             48.21899
 319.62             3147.43             3061.598            3057.513            3057.513            3061.268            3057.844            85.83154
 318.92             3010.65             3061.927            3057.649            3057.649            3061.578            3057.998           -51.27734
 318.22             3274.91             3062.008            3057.521            3057.521            3061.638            3057.891            212.9021
 317.52             2929.76             3063.061            3058.351            3058.351            3062.669            3058.742           -133.3008
 316.82             3001.88             3064.889            3059.938            3059.938            3064.473            3060.354           -63.00879
 316.12             3081.38             3067.124            3061.913            3061.913            3066.681            3062.355            14.25635
 315.42             3152.79             3069.979            3064.488            3064.488            3069.507            3064.959            82.81152
 314.72             3236.91             3073.429            3067.634            3067.634            3072.925            3068.137            163.481
 314.02             3189.86             3078.052            3071.927            3071.927            3077.513            3072.466            111.8081
 313.32             2986.69             3083.046            3076.561            3076.561            3082.468            3077.139           -96.35596
 312.62             3018.71             3087.785            3080.907            3080.907            3087.162            3081.53            -69.07471
 311.92             3165.77             3091.7              3084.394            3084.394            3091.029            3085.065            74.06958
 311.22             2851.65             3095.601            3087.823            3087.823            3094.875            3088.55            -243.9509
 310.52             2799.29             3097.431            3089.135            3089.135            3096.642            3089.923           -298.1406
 309.82             2938.55             3098.112            3089.244            3089.244            3097.253            3090.103           -159.5623
 309.12             2842.18             3096.73             3087.228            3087.228            3095.791            3088.167           -254.55
 308.42             2591.67             3092.543            3082.335            3082.335            3091.512            3083.366           -500.8728
 307.72             2248.2              3084.95             3073.954            3073.954            3083.813            3075.091           -836.75
 307.02             2337.82             3072.421            3060.541            3060.541            3071.161            3061.802           -734.6013
 306.32             2236.55             3055.864            3042.986            3042.986            3054.458            3044.391           -819.3135
 305.62             2204.96             3034.506            3020.498            3020.498            3032.929            3022.074           -829.5459
 304.92             2317                3006.106            2990.808            2990.808            3004.325            2992.589           -689.1057
 304.22             1997.19             2972.351            2955.574            2955.574            2970.324            2957.601           -975.1611
 303.52             2143.67             2931.397            2912.909            2912.909            2929.069            2915.237           -787.7271
 302.82             2103.56             2883.918            2863.434            2863.434            2881.216            2866.136           -780.3577
 302.12             2007.11             2829.081            2806.249            2806.249            2825.909            2809.42            -821.9711
 301.42             2164.91             2767.149            2741.521            2741.521            2763.374            2745.296           -602.2395
 300.72             2308.53             2698.818            2669.815            2669.815            2694.25             2674.383           -390.2881
 300.02             2317.57             2625.079            2591.942            2591.942            2619.444            2597.578           -307.5093
 299.32             2155.79             2545.788            2507.483            2507.483            2538.666            2514.605           -389.998
 298.62             2076.75             2456.502            2411.575            2411.575            2447.229            2420.848           -379.7524
 297.92             1801.01             2356.883            2303.167            2303.167            2344.328            2315.722           -555.873
 297.22             2004.68             2249.208            2182.903            2182.903            2230.948            2201.162           -244.5275
 296.52             1945.53             2142.328            2051.114            2051.114            2107.924            2085.518           -196.7976
 295.82             2059.14             2084.221            1906.587            1906.587            1974.79             2016.018           -25.08105
 295.12             2474.05             2214.021            1753.571            1753.571            1836.96             2130.632            260.0288
 294.42             2779.42             2552.896            1594.477            1594.477            1698.727            2448.646            226.5239
 293.72             2454.36             2610.352            1425.484            1425.484            1559.477            2476.359           -155.9919
 293.02             2239.68             2078.783            1243.435            1243.435            1421.872            1900.346            160.8965
 292.32             1569.47             1527.624            1041.187            1041.187            1290.2              1278.611            41.84631
 291.62             1303.88             1252.132            816.0172            816.0172            1186.683            881.4661            51.74841
 290.92             1384.43             1204.959            572.0956            572.0956            1179.716            597.3384            179.4709
 290.22             1819                1684.456            311.2322            311.2322            1668.962            326.7268            134.5436
 289.52             7595.93             7768.639            65.11548            65.11549            7757.581            76.17368           -172.709
 288.82             28353.1             29260.79            9.877197            9.879368            29252.48            18.18656           -907.6953
 288.12             24232.6             23765.6             242.0198            242.3789            23758.77            248.4837            467.002
 287.42             4569.12             5122.79             343.0383            362.6499            5098.011            348.2057           -553.6699
 286.72             2188.91             1716.56             327.5765            681.2421            1358.672            331.7995            472.3496
 286.02             2815.34             2948.568            309.8938            2415.486            839.4611            313.4082           -133.2275
 285.32             4807.3              4793.63             319.3303            4457.946            652.0448            322.2999            13.66943
 284.62             3455.77             3272.808            356.8547            3042.577            584.544             359.3966            182.9619
 283.92             937.615             1119.056            376.0793            951.5306            541.4047            378.2794           -181.4409
 283.22             465.396             547.0543            379.05              419.7542            504.4275            380.9727           -81.65833
 282.52             390.396             480.8583            379.9196            380.8702            478.2133            381.614            -90.46228
 281.82             384.264             460.5524            379.9367            379.944             459.0406            381.4411           -76.28839
 281.12             346.028             446.4078            380.0442            380.0442            445.0631            381.3889           -100.3798
 280.42             352.661             435.8232            380.2338            380.2338            434.6142            381.4429           -83.16223
 279.72             367.147             427.7601            380.517             380.517             426.6672            381.6099           -60.61307
 279.02             414.656             421.2469            380.6005            380.6005            420.2543            381.5931           -6.590942
 278.32             368.347             415.8959            380.5531            380.5531            414.9903            381.4587           -47.54895
 277.62             344.058             411.363             380.3484            380.3484            410.5334            381.178            -67.30496
 276.92             360.594             407.658             380.2216            380.2216            406.8953            380.9843           -47.064
 276.22             406.453             404.691             380.2467            380.2467            403.9875            380.9502            1.762024
 276.02             380.252             403.9314            380.2522            380.2522            403.2435            380.9401           -23.67938

File: 1#-C1s.txt
321.02	3058.13
320.82	2801.26
320.62	3037.81
320.42	2961.21
320.22	3065.19
320.02	2999.3
319.82	3062.48
319.62	3147.43
319.42	2953.82
319.22	3246.33
319.02	3049.67
318.82	3016.43
318.62	3067.6
318.42	3039.34
318.22	3274.91
318.02	3023.3
317.82	3010.38
317.62	3165.2
317.42	3313.93
317.22	3134.69
317.02	3062.64
316.82	3001.88
316.62	3278.67
316.42	3125.84
316.22	3111.35
316.02	3096.08
315.82	3195.33
315.62	3371.5
315.42	3152.79
315.22	3055.07
315.02	3270.95
314.82	3032.17
314.62	3045.07
314.42	3256.31
314.22	3180.33
314.02	3189.86
313.82	3096.28
313.62	3211.57
313.42	3134.45
313.22	2957.72
313.02	3113.16
312.82	3182.2
312.62	3018.71
312.42	3006.63
312.22	3006.48
312.02	2929.29
311.82	2964.14
311.62	2858.43
311.42	3099.64
311.22	2851.65
311.02	2948.34
310.82	2844.95
310.62	2774.52
310.42	2683.89
310.22	2846.88
310.02	2797.36
309.82	2938.55
309.62	2719.92
309.42	2773.82
309.22	2726.46
309.02	2591.82
308.82	2597.64
308.62	2601.53
308.42	2591.67
308.22	2560.13
308.02	2504.3
307.82	2464.66
307.62	2405.55
307.42	2334.19
307.22	2479.5
307.02	2337.82
306.82	2324.63
306.62	2397.56
306.42	2289.19
306.22	2502.21
306.02	2292.82
305.82	2239.53
305.62	2204.96
305.42	2213.28
305.22	2193.55
305.02	2010.03
304.82	2272.27
304.62	2045.72
304.42	2152.77
304.22	1997.19
304.02	2046.49
303.82	1929.8
303.62	1951.88
303.42	2050.88
303.22	2018.12
303.02	2057.38
302.82	2103.56
302.62	2072.79
302.42	1861.81
302.22	2092.6
302.02	2073.23
301.82	2103.11
301.62	2015.1
301.42	2164.91
301.22	2129.48
301.02	2142.77
300.82	2235.25
300.62	2317.8
300.42	2309.59
300.22	2329.91
300.02	2317.57
299.82	2401.57
299.62	2305.63
299.42	2228.79
299.22	2061.02
299.02	2223.39
298.82	2102.84
298.62	2076.75
298.42	1950.33
298.22	1965.36
298.02	1943.23
297.82	2003.96
297.62	1918.12
297.42	1805.1
297.22	2004.68
297.02	1774.01
296.82	1718.67
296.62	1947.79
296.42	1822.1
296.22	1906.2
296.02	1798.59
295.82	2059.14
295.62	2100.21
295.42	2182.8
295.22	2142.31
295.02	2454
294.82	2549.77
294.62	2717.34
294.42	2779.42
294.22	2459.42
294.02	2649.78
293.82	2587.08
293.62	2776.75
293.42	2388.44
293.22	2280.31
293.02	2239.68
292.82	2040.74
292.62	1774.83
292.42	1538.66
292.22	1422.01
292.02	1349.13
291.82	1337.72
291.62	1303.88
291.42	1407.03
291.22	1377.67
291.02	1300.7
290.82	1252.26
290.62	1306.74
290.42	1603.12
290.22	1819
290.02	2687.77
289.82	3728.52
289.62	5950.84
289.42	9973.42
289.22	15276.6
289.02	22529.7
288.82	28353.1
288.62	32312.6
288.42	32877.4
288.22	28406.3
288.02	20294.1
287.82	13327.1
287.62	8162.34
287.42	4569.12
287.22	3276.21
287.02	2446.75
286.82	2046.87
286.62	2153.72
286.42	2319.47
286.22	2447.71
286.02	2815.34
285.82	3234.85
285.62	3913.56
285.42	4531.82
285.22	4956.54
285.02	4992.25
284.82	4268.15
284.62	3455.77
284.42	2640.21
284.22	1798.72
284.02	1195.09
283.82	881.823
283.62	644.458
283.42	564.716
283.22	465.396
283.02	489.136
282.82	399.31
282.62	378.071
282.42	427.041
282.22	354.632
282.02	341.507
281.82	384.264
281.62	365.186
281.42	396.309
281.22	373.119
281.02	406.052
280.82	369.068
280.62	357.283
280.42	352.661
280.22	450.58
280.02	449.2
279.82	392.657
279.62	443.337
279.42	372.949
279.22	379.292
279.02	414.656
278.82	381.253
278.62	346.048
278.42	342.167
278.22	358.493
278.02	391.687
277.82	423.629
277.62	344.058
277.42	413.305
277.22	248.509
277.02	391.186
276.82	321.859
276.62	379.992
276.42	379.482
276.22	406.453
276.02	380.252

File: 1#-N1s.dat
B.E.(eV)           Raw Intensity       Peak Sum            Background          Peak 1              Peak 2              Peak 3              Peak 4              difference
 413.02             6910.71             6929.635            6910.71             6916.537            6917.911            6915.939            6911.377           -18.9248
 412.57             6817.14             6930.968            6910.639            6916.856            6918.357            6916.287            6911.385           -113.8281
 412.12             6660.56             6931.763            6909.865            6916.511            6918.158            6915.984            6910.705           -271.2026
 411.67             6954.11             6937.368            6913.709            6920.831            6922.644            6920.359            6914.662            16.7417
 411.22             6251.75             6944.291            6918.644            6926.294            6928.297            6925.898            6919.733           -692.541
 410.77             6244.3              6955.749            6927.844            6936.084            6938.307            6935.789            6929.102           -711.4492
 410.32             6256.48             6969.84             6939.356            6948.257            6950.733            6948.093            6940.825           -713.3599
 409.87             6319.66             6986.274            6952.821            6962.465            6965.238            6962.476            6954.558           -666.6143
 409.42             6088.36             7002.631            6965.729            6976.212            6979.335            6976.454            6967.815           -914.271
 408.97             6211.98             7021.616            6980.667            6992.106            6995.642            6992.651            6983.219           -809.6362
 408.52             6210.08             7041.599            6995.841            7008.371            7012.401            7009.317            6999.032           -831.519
 408.07             6797.99             7059.405            7007.841            7021.626            7026.251            7023.107            7011.944           -261.415
 407.62             6775.11             7072.873            7014.147            7029.385            7034.735            7031.582            7019.613           -297.7632
 407.17             6914.23             7086.673            7018.841            7035.773            7042.016            7038.939            7026.467           -172.4429
 406.72             7079.04             7101.766            7021.793            7040.719            7048.073            7045.213            7033.139           -22.72559
 406.27             7134.03             7121.481            7023.349            7044.642            7053.401            7050.982            7042.502            12.54883
 405.82             7250.77             7173.873            7021.914            7046.045            7056.607            7055                7081.962            76.89746
 405.37             7850.61             7470.156            7015.245            7042.821            7055.738            7055.557            7361.775            380.4541
 404.92             8066.92             8096.367            7000.084            7031.896            7047.953            7050.245            7966.527           -29.44727
 404.47             8356.21             7910.865            6980.282            7017.381            7037.724            7044.337            7752.27             445.3447
 404.02             7569.26             7359.469            6963.8              7007.614            7033.972            7048.32             7160.962            209.7905
 403.57             6668.05             7254.799            6961.885            7014.407            7049.481            7078.718            6997.849           -586.7495
 403.12             6373.47             7349.42             6975.052            7039.137            7087.354            7157.429            6990.657           -975.9502
 402.67             6543.71             7657.178            6990.943            7070.834            7139.896            7418.507            7000.77            -1113.468
 402.22             8903.18             8810.398            6986.925            7089.199            7195.463            8492.817            6993.693            92.78125
 401.77             12862               11846.25            6920.492            7055.89             7266.411            11359.99            6925.427            1015.753
 401.32             15679.5             15833.24            6783.681            6971.976            7690.276            14734.6             6787.435           -153.7422
 400.87             17156.9             17548.02            6604.424            6920.392            9725.286            14108.24            6607.374           -391.1191
 400.42             20195.2             19593.21            6378.776            7541.053            14625.08            10182.25            6381.154            601.9922
 399.97             26529.2             27291.3             6069.954            12883.85            19264.96            7280.438            6071.911           -762.0977
 399.52             42575.8             42810.04            5555.962            31099.09            16910.71            5910.525            5557.6             -234.2344
 399.07             59776.8             58792.61            4687.368            53117.72            10194.94            4853.305            4688.76             984.1875
 398.62             49938               49434.48            3688.126            47568.77            5442.641            3798.127            3689.323            503.5156
 398.17             22418.5             22873.06            3046.761            22252.7             3585.709            3127.138            3047.801           -454.5605
 397.72             7602.25             7525.142            2827.981            7200.534            3090.38             2889.278            2828.893            77.1084
 397.27             4093.24             3748.876            2773.578            3523.574            2949.841            2821.812            2774.384            344.3638
 396.82             3224.49             3188.139            2755.018            3018.733            2884.79             2793.933            2755.736            36.35132
 396.37             3050.36             3051.227            2747.599            2919.005            2847.135            2779.642            2748.242           -.8669434
 395.92             2909.86             2974.529            2743.154            2868.437            2821.831            2769.988            2743.733           -64.66895
 395.47             2832.33             2923.288            2740.706            2836.262            2804.411            2763.5              2741.231           -90.95776
 395.02             2738.04             2887.446            2739.547            2814.757            2792.157            2759.147            2740.024           -149.4055
 394.57             2616.63             2861.065            2738.732            2799.431            2782.899            2755.763            2739.169           -244.4355
 394.12             2747.99             2840.77             2737.844            2787.839            2775.44             2752.779            2738.245           -92.77954
 393.67             2799                2825.941            2738.105            2779.986            2770.49             2751.307            2738.474           -26.94092
 393.22             2709.2              2813.617            2737.755            2773.341            2765.938            2749.508            2738.096           -104.4172
 392.77             2703.63             2803.647            2737.45             2768.056            2762.195            2747.98             2737.765           -100.0176
 392.32             2651.46             2796.304            2738.021            2764.623            2759.921            2747.509            2738.314           -144.844
 391.87             2858.72             2789.271            2737.555            2760.887            2757.073            2746.149            2737.829            69.44922
 391.42             2686.86             2783.372            2737.166            2757.795            2754.669            2744.985            2737.421           -96.51172
 390.97             2814.78             2780.495            2738.958            2757.327            2754.742            2746.103            2739.197            34.2854
 390.52             2699.74             2776.767            2739.223            2755.683            2753.529            2745.777            2739.447           -77.0271
 390.07             2851.65             2774.69             2740.586            2755.42             2753.612            2746.62             2740.796            76.95947
 389.62             2926.91             2770.962            2739.844            2753.281            2751.754            2745.417            2740.042            155.9475
 389.17             2797.32             2767.756            2739.246            2751.475            2750.178            2744.409            2739.433            29.56372
 389.02             2738.88             2766.593            2738.88             2750.741            2749.512            2743.916            2739.063           -27.71289