Folder: Synthesis-of-barbituric-acid-doped-carbon-nitride-for-efficient-solar-driven-photocatalytic-degradat/Synthesis of barbituric acid doped carbon nitride for efficient solar-driven photocatalytic degradation of aniline/data/CN-BA-XPS/XPS (part 3)

File: 1#-Valence.dat
B.E.(eV)           Raw Intensity       Peak Sum            Background          Peak 1              Peak 2              Peak 3              Peak 4              Peak 5              Peak 6              difference
 41.02              361.621             365.7693            361.621             361.6356            361.6601            361.6533            361.6805            361.7091            365.5357           -4.148254
 40.07              356.271             366.1291            361.5232            361.5385            361.5645            361.5576            361.5869            361.6184            365.879            -9.858124
 39.12              380.144             366.3434            361.1999            361.2161            361.2437            361.2366            361.2685            361.3032            366.0748            13.80066
 38.17              342.569             366.9518            361.1716            361.1888            361.218             361.2109            361.2456            361.284             366.6627           -24.38281
 37.22              367.087             368.0329            361.49              361.5081            361.5393            361.532             361.5699            361.6126            367.7207           -.9458923
 36.27              321.533             368.9422            361.4709            361.4902            361.5235            361.5162            361.5577            361.6054            368.604            -47.40924
 35.32              331.501             370.4705            361.8365            361.857             361.8926            361.8853            361.931             361.9846            370.1027           -38.96945
 34.37              369.536             372.3924            362.2164            362.2381            362.2763            362.2691            362.3196            362.3802            371.991            -2.856415
 33.42              380.284             374.8391            362.3957            362.4189            362.4599            362.4529            362.5089            362.5779            374.3991            5.444885
 32.47              394.246             378.2937            362.0306            362.0554            362.0995            362.0928            362.1554            362.2346            377.809             15.95233
 31.52              375.854             384.5038            361.0473            361.0738            361.1215            361.1152            361.1855            361.2771            383.967            -8.64975
 30.57              454.814             397.1345            359.6063            359.6348            359.6865            359.6808            359.7603            359.8672            396.5365            57.6795
 29.62              479.34              420.2046            356.08              356.1106            356.1668            356.162             356.2524            356.3786            419.5338            59.13544
 28.67              484.122             459.9486            349.5388            349.5719            349.6333            349.6296            349.7335            349.8842            459.1904            24.17337
 27.72              503.473             523.2209            340.7657            340.8015            340.8687            340.8667            340.9869            341.1694            522.356            -19.74789
 26.77              676.299             609.0828            328.3843            328.4232            328.4972            328.4975            328.6381            328.8627            608.0858            67.21619
 25.82              711.248             705.9626            310.6963            310.7387            310.8205            310.8238            310.9903            311.2719            704.799             5.2854
 24.87              756.351             793.3729            289.4919            289.5384            289.6292            289.6367            289.8365            290.1975            791.9944           -37.02191
 23.92              764.022             841.2677            266.372             266.423             266.5245            266.5378            266.7813            267.2569            839.6041           -77.24573
 22.97              800.38              821.718             241.2086            241.2649            241.3791            241.4004            241.7026            242.3503            819.6635           -21.33801
 22.02              751.865             734.3707            215.9224            215.9849            216.1142            216.1468            216.5304            217.45              731.7562            17.49432
 21.07              754.31              604.4583            190.1993            190.2691            190.4167            190.4653            190.9655            192.3435            600.9945            149.8517
 20.12              518.543             469.689             169.2289            169.3073            169.4774            169.5492            170.2233            172.4488            464.8273            48.854
 19.17              334.15              359.0374            156.9275            157.0163            157.2143            157.3206            158.2682            162.6904            351.1652           -24.88739
 18.22              270.604             292.4342            149.6356            149.7369            149.9702            150.129             151.5366            171.2541            267.9854           -21.83017
 17.27              314.958             325.2083            141.7797            141.8963            142.1751            142.4171            144.6963            252.4079            210.5143           -10.25031
 16.32              392.537             430.0207            130.4095            130.5453            130.8839            131.2633            136.4723            382.6674            170.2363           -37.4837
 15.37              370.148             347.1281            117.0172            117.1771            117.5967            118.2171            144.305             293.4921            141.4261            23.01996
 14.42              303.397             283.4732            107.8608            108.0521            108.5847            109.6836            219.5705            152.4851            124.4014            19.9238
 13.47              325.986             317.8221            97.85941            98.09215            98.78885            101.6124            291.6962            106.6463            110.2832            8.16391
 12.52              248.143             234.1496            89.44217            89.73149            90.67853            105.2055            202.8839            93.37928            99.48168            13.99344
 11.57              190.66              185.9578            82.84562            83.21492            84.569              144.9244            110.8197            85.35656            91.3013             4.70224
 10.62              207.111             210.728             77.04173            77.52927            79.60451            192.4875            83.20633            78.78717            84.32186           -3.617035
 9.67               193.141             167.2631            71.38677            72.05965            75.57715            151.8306            74.32513            72.66795            77.73656            25.87787
 8.72               128.543             109.3884            67.37984            68.36704            75.70094            91.59944            69.29166            68.35914            72.96933            19.15462
 7.77               135.694             130.5425            65.07277            66.65617            116.6461            70.30901            66.41991            65.84514            70.03009            5.151459
 6.82               480.844             411.1284            55.04715            57.97284            400.0437            57.15749            56.04575            55.67164            59.47273            69.71564
 5.87               364.134             347.6239            36.09384            44.86758            332.2592            37.42643            36.86284            36.60908            40.068              16.51007
 4.92               256.611             197.466             24.67329            154.5941            61.98244            25.60595            25.28331            25.10556            28.26108            59.14497
 3.97               226.643             245.2193            12.21722            233.0131            19.61737            12.90529            12.71274            12.58501            15.47187           -18.57628
 3.02               88.2953             31.95036            4.561638            23.82924            8.462318            5.089512            4.972012            4.878347            7.527116            56.34495
 2.07               10.1641             12.93303            3.046391            6.760228            5.467867            3.463868            3.391764            3.32195             5.759312           -2.768933
 1.12               0                   9.917986            3.025615            4.907548            4.670123            3.363887            3.320258            3.267542            5.516705           -9.917986
 .17                0                   8.476091            3.113836            4.244858            4.301888            3.393403            3.368136            3.327924            5.409063           -8.476091
-.78                0                   7.620998            3.201805            3.954411            4.099583            3.436677            3.423501            3.392592            5.323261           -7.620998
-1.73               2.60904             7.09448             3.323588            3.859766            4.025577            3.523659            3.518561            3.494677            5.290181           -4.485439
-2.68               0                   6.718344            3.425911            3.827008            3.989703            3.598363            3.59871             3.580199            5.253916           -6.718344
-3.63               0                   6.455055            3.533449            3.844679            3.996111            3.683619            3.687648            3.673293            5.236948           -6.455055
-3.98               3.57343             6.378154            3.573425            3.859025            4.005588            3.716462            3.721522            3.708455            5.234229           -2.804724

File: 1#-Valence.txt
41.02	361.621
40.82	357.359
40.62	376.939
40.42	337.447
40.22	386.21
40.02	360.22
39.82	385.042
39.62	347.687
39.42	379.828
39.22	359.656
39.02	355.134
38.82	358.579
38.62	358.143
38.42	386.014
38.22	332.045
38.02	334.866
37.82	331.781
37.62	354.438
37.42	376.871
37.22	367.087
37.02	383.037
36.82	358.115
36.62	371.609
36.42	375.806
36.22	357.635
36.02	385.882
35.82	362.957
35.62	363.253
35.42	326.727
35.22	333.826
35.02	309.424
34.82	389.284
34.62	338.199
34.42	373.145
34.22	367.883
34.02	354.77
33.82	322.973
33.62	344.99
33.42	380.284
33.22	382.389
33.02	350.548
32.82	404.374
32.62	369.284
32.42	400.388
32.22	363.926
32.02	388.015
31.82	404.554
31.62	338.884
31.42	432.417
31.22	368.023
31.02	389
30.82	350.984
30.62	394.118
30.42	409.472
30.22	393.657
30.02	426.611
29.82	486.351
29.62	479.34
29.42	459.32
29.22	491.869
29.02	551.168
28.82	477.999
28.62	503.677
28.42	499.552
28.22	554.25
28.02	532.689
27.82	565.418
27.62	624.022
27.42	593.093
27.22	663.053
27.02	645.478
26.82	602.465
26.62	687.411
26.42	720.672
26.22	705.746
26.02	686.082
25.82	711.248
25.62	731.425
25.42	733.497
25.22	782.773
25.02	777.663
24.82	741.901
24.62	800.296
24.42	741.02
24.22	754.938
24.02	797.503
23.82	812.557
23.62	782.817
23.42	786.242
23.22	829.9
23.02	783.637
22.82	782.657
22.62	747.459
22.42	792.361
22.22	762.853
22.02	751.865
21.82	773.077
21.62	716.271
21.42	788.251
21.22	778.407
21.02	728.195
20.82	682.665
20.62	617.739
20.42	622.189
20.22	554.286
20.02	475.422
19.82	438.703
19.62	408.039
19.42	386.054
19.22	333.173
19.02	338.403
18.82	322.413
18.62	275.55
18.42	252.833
18.22	270.604
18.02	315.958
17.82	306.663
17.62	310.036
17.42	328.035
17.22	367.803
17.02	378.663
16.82	400.472
16.62	396.699
16.42	425.278
16.22	417.767
16.02	491.253
15.82	407.527
15.62	373.457
15.42	378.816
15.22	331.305
15.02	333.189
14.82	287.347
14.62	275.89
14.42	303.397
14.22	314.27
14.02	326.182
13.82	312.853
13.62	342.449
13.42	305.658
13.22	273.786
13.02	275.518
12.82	245.27
12.62	245.254
12.42	275.702
12.22	242.733
12.02	232.013
11.82	230.12
11.62	193.589
11.42	223.645
11.22	187.083
11.02	202.101
10.82	179.452
10.62	207.111
10.42	185.31
10.22	182.717
10.02	197.975
9.82	208.083
9.62	205.334
9.42	177.775
9.22	164.582
9.02	142.301
8.82	140.644
8.62	122.433
8.42	117.359
8.22	106.054
8.02	117.959
7.82	154.63
7.62	170.316
7.42	254.158
7.22	269.36
7.02	381.176
6.82	480.844
6.62	449.828
6.42	469.992
6.22	530.128
6.02	428.007
5.82	370.3
5.62	303.221
5.42	253.573
5.22	231.981
5.02	233.253
4.82	250.288
4.62	291.032
4.42	303.633
4.22	313.285
4.02	271.613
3.82	231.645
3.62	182.381
3.42	161.124
3.22	116.955
3.02	88.2953
2.82	44.3377
2.62	37.1108
2.42	21.6246
2.22	7.61905
2.02	6.71068
1.82	6.33453
1.62	2.13285
1.42	2.13285
1.22	2.42897
1.02	5.57423
0.82	1.33653
0.62	0.37215
0.42	0
0.22	3.57343
0.02	3.20528
-0.18	0
-0.38	0.86435
-0.58	2.94518
-0.78	0
-0.98	0
-1.18	0.94438
-1.38	0
-1.58	2.0048
-1.78	1.70868
-1.98	1.19248
-2.18	0
-2.38	2.72909
-2.58	0
-2.78	0.05602
-2.98	2.80512
-3.18	2.93717
-3.38	1.05642
-3.58	2.38495
-3.78	0.53221
-3.98	3.57343

File: 6#-C1s.dat
B.E.(eV)           Raw Intensity       Peak Sum            Background          Peak 1              Peak 2              Peak 3              difference
 321.02             3066.53             3070.046            3066.53             3066.968            3069.345            3066.794           -3.516113
 320.32             3131.34             3071.525            3067.853            3068.308            3070.792            3068.13             59.81519
 319.62             3099.49             3072.853            3069.015            3069.489            3072.087            3069.307            26.63672
 318.92             3171.99             3076.586            3072.569            3073.063            3075.783            3072.877            95.4043
 318.22             3327.91             3081.511            3077.304            3077.819            3080.671            3077.63             246.3984
 317.52             3331.22             3090.334            3085.921            3086.459            3089.452            3086.266            240.886
 316.82             3149.51             3100.597            3095.964            3096.525            3099.67             3096.33             48.91333
 316.12             3288.72             3109.803            3104.932            3105.519            3108.827            3105.321            178.917
 315.42             3133.96             3123.517            3118.39             3119.004            3122.489            3118.804            10.44312
 314.72             3332.28             3139.727            3134.323            3134.966            3138.642            3134.764            192.5535
 314.02             3364.29             3157.811            3152.107            3152.782            3156.665            3152.578            206.4795
 313.32             3319.56             3179.688            3173.658            3174.367            3178.475            3174.162            139.8721
 312.62             3249.71             3202.469            3196.084            3196.83             3201.183            3196.626            47.24048
 311.92             2957.17             3226.18             3219.407            3220.192            3224.812            3219.99            -269.01
 311.22             3087.49             3250.104            3242.906            3243.733            3248.647            3243.535           -162.6138
 310.52             2883.6              3273.248            3265.584            3266.457            3271.693            3266.265           -389.6477
 309.82             2935.95             3296.339            3288.162            3289.086            3294.676            3288.902           -360.3892
 309.12             2788.93             3317.223            3308.479            3309.457            3315.438            3309.285           -528.2927
 308.42             2786.82             3336.048            3326.675            3327.712            3334.128            3327.557           -549.2278
 307.72             2648                3352.617            3342.544            3343.647            3350.545            3343.513           -704.6172
 307.02             2403.19             3363.573            3352.717            3353.891            3361.329            3353.787           -960.3831
 306.32             2478.01             3369.634            3357.899            3359.152            3367.194            3359.087           -891.624
 305.62             2408.04             3370.787            3358.061            3359.4              3368.123            3359.386           -962.7473
 304.92             2226.62             3364.366            3350.514            3351.949            3361.443            3352.002           -1137.746
 304.22             2185.37             3351.026            3335.888            3337.43             3347.801            3337.571           -1165.656
 303.52             2242.02             3328.565            3311.95             3313.611            3324.985            3313.868           -1086.545
 302.82             2017.19             3295.975            3277.649            3279.444            3291.973            3279.856           -1278.785
 302.12             2212.73             3255.066            3234.741            3236.686            3250.556            3237.306           -1042.336
 301.42             2152.38             3203.954            3181.272            3183.387            3198.821            3184.29            -1051.574
 300.72             2210.18             3143.677            3118.182            3120.49             3137.768            3121.783           -933.4976
 300.02             2333.77             3075.303            3046.406            3048.935            3068.405            3050.776           -741.5334
 299.32             2294.21             2998.455            2965.377            2968.16             2990.262            2970.787           -704.2454
 298.62             2254.19             2906.596            2868.276            2871.353            2896.654            2875.141           -652.4065
 297.92             1947.92             2796.654            2751.587            2755.008            2784.248            2760.571           -848.7335
 297.22             1875.54             2670.017            2615.907            2619.732            2653.897            2628.201           -794.4771
 296.52             1903.07             2530.522            2462.576            2466.882            2507.311            2481.481           -627.452
 295.82             2013.56             2390.476            2289.884            2294.767            2343.326            2332.151           -376.9158
 295.12             2261.44             2309.814            2099.268            2104.852            2164.223            2239.275           -48.37378
 294.42             2513.43             2391.777            1895.16             1901.607            1975.771            2304.719            121.6533
 293.72             2642.19             2563.455            1677.45             1684.976            1780.107            2453.272            78.73511
 293.02             2328.4              2414.993            1438.819            1447.718            1573.896            2271.016           -86.59277
 292.32             1991.77             1856.629            1165.932            1176.617            1351.412            1660.464            135.1409
 291.62             1358.46             1319.879            853.3036            866.3682            1123.162            1036.956            38.58105
 290.92             1388.92             999.4355            501.2997            517.6315            928.6505            555.753             389.4846
 290.22             1486.26             1048.893            116.2969            137.2833            1006.208            137.9956            437.3669
 289.52             4687.4              4707.751           -278.5674           -250.6356            4666.478           -265.2249           -20.35156
 288.82             22336.9             22992.15           -467.6172           -428.6855            22943.62           -458.0156           -655.248
 288.12             31771.6             30305.44           -84.93555           -27.09478            30240.32           -77.66021            1466.164
 287.42             8738.79             9652.023            238.6982            337.3527            9547.672            244.3953           -913.2334
 286.72             2878.87             2005.355            260.4651            582.4529            1678.789            265.043             873.5154
 286.02             2497.3              2511.248            236.0081            1990.776            752.7236            239.765            -13.948
 285.32             4835.17             5230.808            246.3096            4916.07             557.9095            249.4469           -395.6377
 284.62             5130.48             4358.944            326.5601            4147.296            535.5497            329.2187            771.5356
 283.92             1709.91             1593.38             385.5835            1441.542            535.1401            387.8648            116.53
 283.22             528.541             707.5109            397.1838            593.3509            509.3652            399.1624           -178.9698
 282.52             394.338             569.4104            399.9026            480.4786            487.1021            401.6349           -175.0724
 281.82             399.49              523.2318            401.5185            452.0056            471.2156            403.0475           -123.7418
 281.12             315.176             495.319             402.2103            436.9919            459.1779            403.5699           -180.143
 280.42             306.112             476.9389            402.9316            428.2971            450.3567            404.1483           -170.8269
 279.72             398.84              463.7788            403.3               422.5942            443.3894            404.3951           -64.93884
 279.02             372.789             454.5167            404.0361            419.1952            438.3666            405.0271           -81.72766
 278.32             358.303             447.1133            404.2654            416.4849            433.9929            405.1664           -88.81024
 277.62             384.874             441.0512            404.1817            414.2381            430.1722            405.0044           -56.17719
 276.92             324.83              435.2018            403.1127            411.5321            426.0284            403.8668           -110.3719
 276.22             370.308             430.1632            401.9632            409.1142            422.3185            402.6569           -59.85522
 276.02             401.701             428.9223            401.7012            408.5421            421.4035            402.379            -27.22128